{
  "schema": "opencsr/ard/v1",
  "display": "l-ae-serious",
  "created": "2026-07-25T06:39:08Z",
  "provenance": {
    "spec_hash": "sha256:a046fb1cdc11ed10d586284efeb97e30ab743f4ad394869bd83ae1bfb401d140",
    "display_hash": "sha256:b865356eb33a50fb5cabae395251d60df06c7607485231ce1ae9516804af6523",
    "data": [
      {
        "dataset": "adsl",
        "hash": "sha256:f9a1c3605cb277363fba0add4c4228df6a288685586575be159718696c582107",
        "n_row": 254,
        "n_col": 60,
        "source_pkg": "pharmaverseadam",
        "source_version": "1.1.0"
      },
      {
        "dataset": "adae",
        "hash": "sha256:7d4237afdbf934742091e6b7e0a756fcba6a0e79fc9f35b578f86574baf8f7d4",
        "n_row": 1191,
        "n_col": 105,
        "source_pkg": "pharmaverseadam",
        "source_version": "1.1.0"
      }
    ],
    "environment": {
      "r": "4.3.3",
      "os": "Darwin 23.6.0",
      "packages": {
        "cards": "0.6.1",
        "cardx": "0.2.5",
        "gtsummary": "2.3.0",
        "gt": "1.0.0",
        "dplyr": "1.1.4",
        "pharmaverseadam": "1.1.0",
        "jsonlite": "2.0.0",
        "yaml": "2.3.10",
        "digest": "0.6.37"
      }
    },
    "git_commit": null
  },
  "rows": [
    {
      "analysis": "sae_records",
      "group1": "record",
      "group1_level": "0001",
      "group2": null,
      "group2_level": null,
      "variable": "USUBJID",
      "variable_level": null,
      "context": "listing",
      "stat_name": "value",
      "stat_label": "USUBJID",
      "stat": "01-709-1424",
      "warning": null,
      "error": null
    },
    {
      "analysis": "sae_records",
      "group1": "record",
      "group1_level": "0002",
      "group2": null,
      "group2_level": null,
      "variable": "USUBJID",
      "variable_level": null,
      "context": "listing",
      "stat_name": "value",
      "stat_label": "USUBJID",
      "stat": "01-718-1170",
      "warning": null,
      "error": null
    },
    {
      "analysis": "sae_records",
      "group1": "record",
      "group1_level": "0003",
      "group2": null,
      "group2_level": null,
      "variable": "USUBJID",
      "variable_level": null,
      "context": "listing",
      "stat_name": "value",
      "stat_label": "USUBJID",
      "stat": "01-718-1371",
      "warning": null,
      "error": null
    },
    {
      "analysis": "sae_records",
      "group1": "record",
      "group1_level": "0001",
      "group2": null,
      "group2_level": null,
      "variable": "TRT01A",
      "variable_level": null,
      "context": "listing",
      "stat_name": "value",
      "stat_label": "TRT01A",
      "stat": "Xanomeline Low Dose",
      "warning": null,
      "error": null
    },
    {
      "analysis": "sae_records",
      "group1": "record",
      "group1_level": "0002",
      "group2": null,
      "group2_level": null,
      "variable": "TRT01A",
      "variable_level": null,
      "context": "listing",
      "stat_name": "value",
      "stat_label": "TRT01A",
      "stat": "Xanomeline Low Dose",
      "warning": null,
      "error": null
    },
    {
      "analysis": "sae_records",
      "group1": "record",
      "group1_level": "0003",
      "group2": null,
      "group2_level": null,
      "variable": "TRT01A",
      "variable_level": null,
      "context": "listing",
      "stat_name": "value",
      "stat_label": "TRT01A",
      "stat": "Xanomeline High Dose",
      "warning": null,
      "error": null
    },
    {
      "analysis": "sae_records",
      "group1": "record",
      "group1_level": "0001",
      "group2": null,
      "group2_level": null,
      "variable": "AGE",
      "variable_level": null,
      "context": "listing",
      "stat_name": "value",
      "stat_label": "AGE",
      "stat": "77",
      "warning": null,
      "error": null
    },
    {
      "analysis": "sae_records",
      "group1": "record",
      "group1_level": "0002",
      "group2": null,
      "group2_level": null,
      "variable": "AGE",
      "variable_level": null,
      "context": "listing",
      "stat_name": "value",
      "stat_label": "AGE",
      "stat": "80",
      "warning": null,
      "error": null
    },
    {
      "analysis": "sae_records",
      "group1": "record",
      "group1_level": "0003",
      "group2": null,
      "group2_level": null,
      "variable": "AGE",
      "variable_level": null,
      "context": "listing",
      "stat_name": "value",
      "stat_label": "AGE",
      "stat": "69",
      "warning": null,
      "error": null
    },
    {
      "analysis": "sae_records",
      "group1": "record",
      "group1_level": "0001",
      "group2": null,
      "group2_level": null,
      "variable": "SEX",
      "variable_level": null,
      "context": "listing",
      "stat_name": "value",
      "stat_label": "SEX",
      "stat": "M",
      "warning": null,
      "error": null
    },
    {
      "analysis": "sae_records",
      "group1": "record",
      "group1_level": "0002",
      "group2": null,
      "group2_level": null,
      "variable": "SEX",
      "variable_level": null,
      "context": "listing",
      "stat_name": "value",
      "stat_label": "SEX",
      "stat": "F",
      "warning": null,
      "error": null
    },
    {
      "analysis": "sae_records",
      "group1": "record",
      "group1_level": "0003",
      "group2": null,
      "group2_level": null,
      "variable": "SEX",
      "variable_level": null,
      "context": "listing",
      "stat_name": "value",
      "stat_label": "SEX",
      "stat": "F",
      "warning": null,
      "error": null
    },
    {
      "analysis": "sae_records",
      "group1": "record",
      "group1_level": "0001",
      "group2": null,
      "group2_level": null,
      "variable": "AEBODSYS",
      "variable_level": null,
      "context": "listing",
      "stat_name": "value",
      "stat_label": "AEBODSYS",
      "stat": "NERVOUS SYSTEM DISORDERS",
      "warning": null,
      "error": null
    },
    {
      "analysis": "sae_records",
      "group1": "record",
      "group1_level": "0002",
      "group2": null,
      "group2_level": null,
      "variable": "AEBODSYS",
      "variable_level": null,
      "context": "listing",
      "stat_name": "value",
      "stat_label": "AEBODSYS",
      "stat": "NERVOUS SYSTEM DISORDERS",
      "warning": null,
      "error": null
    },
    {
      "analysis": "sae_records",
      "group1": "record",
      "group1_level": "0003",
      "group2": null,
      "group2_level": null,
      "variable": "AEBODSYS",
      "variable_level": null,
      "context": "listing",
      "stat_name": "value",
      "stat_label": "AEBODSYS",
      "stat": "NERVOUS SYSTEM DISORDERS",
      "warning": null,
      "error": null
    },
    {
      "analysis": "sae_records",
      "group1": "record",
      "group1_level": "0001",
      "group2": null,
      "group2_level": null,
      "variable": "AEDECOD",
      "variable_level": null,
      "context": "listing",
      "stat_name": "value",
      "stat_label": "AEDECOD",
      "stat": "SYNCOPE",
      "warning": null,
      "error": null
    },
    {
      "analysis": "sae_records",
      "group1": "record",
      "group1_level": "0002",
      "group2": null,
      "group2_level": null,
      "variable": "AEDECOD",
      "variable_level": null,
      "context": "listing",
      "stat_name": "value",
      "stat_label": "AEDECOD",
      "stat": "SYNCOPE",
      "warning": null,
      "error": null
    },
    {
      "analysis": "sae_records",
      "group1": "record",
      "group1_level": "0003",
      "group2": null,
      "group2_level": null,
      "variable": "AEDECOD",
      "variable_level": null,
      "context": "listing",
      "stat_name": "value",
      "stat_label": "AEDECOD",
      "stat": "PARTIAL SEIZURES WITH SECONDARY GENERALISATION",
      "warning": null,
      "error": null
    },
    {
      "analysis": "sae_records",
      "group1": "record",
      "group1_level": "0001",
      "group2": null,
      "group2_level": null,
      "variable": "AESEV",
      "variable_level": null,
      "context": "listing",
      "stat_name": "value",
      "stat_label": "AESEV",
      "stat": "MODERATE",
      "warning": null,
      "error": null
    },
    {
      "analysis": "sae_records",
      "group1": "record",
      "group1_level": "0002",
      "group2": null,
      "group2_level": null,
      "variable": "AESEV",
      "variable_level": null,
      "context": "listing",
      "stat_name": "value",
      "stat_label": "AESEV",
      "stat": "SEVERE",
      "warning": null,
      "error": null
    },
    {
      "analysis": "sae_records",
      "group1": "record",
      "group1_level": "0003",
      "group2": null,
      "group2_level": null,
      "variable": "AESEV",
      "variable_level": null,
      "context": "listing",
      "stat_name": "value",
      "stat_label": "AESEV",
      "stat": "SEVERE",
      "warning": null,
      "error": null
    },
    {
      "analysis": "sae_records",
      "group1": "record",
      "group1_level": "0001",
      "group2": null,
      "group2_level": null,
      "variable": "AEREL",
      "variable_level": null,
      "context": "listing",
      "stat_name": "value",
      "stat_label": "AEREL",
      "stat": "POSSIBLE",
      "warning": null,
      "error": null
    },
    {
      "analysis": "sae_records",
      "group1": "record",
      "group1_level": "0002",
      "group2": null,
      "group2_level": null,
      "variable": "AEREL",
      "variable_level": null,
      "context": "listing",
      "stat_name": "value",
      "stat_label": "AEREL",
      "stat": "PROBABLE",
      "warning": null,
      "error": null
    },
    {
      "analysis": "sae_records",
      "group1": "record",
      "group1_level": "0003",
      "group2": null,
      "group2_level": null,
      "variable": "AEREL",
      "variable_level": null,
      "context": "listing",
      "stat_name": "value",
      "stat_label": "AEREL",
      "stat": "NONE",
      "warning": null,
      "error": null
    },
    {
      "analysis": "sae_records",
      "group1": "record",
      "group1_level": "0001",
      "group2": null,
      "group2_level": null,
      "variable": "ASTDY",
      "variable_level": null,
      "context": "listing",
      "stat_name": "value",
      "stat_label": "ASTDY",
      "stat": "5",
      "warning": null,
      "error": null
    },
    {
      "analysis": "sae_records",
      "group1": "record",
      "group1_level": "0002",
      "group2": null,
      "group2_level": null,
      "variable": "ASTDY",
      "variable_level": null,
      "context": "listing",
      "stat_name": "value",
      "stat_label": "ASTDY",
      "stat": "27",
      "warning": null,
      "error": null
    },
    {
      "analysis": "sae_records",
      "group1": "record",
      "group1_level": "0003",
      "group2": null,
      "group2_level": null,
      "variable": "ASTDY",
      "variable_level": null,
      "context": "listing",
      "stat_name": "value",
      "stat_label": "ASTDY",
      "stat": "38",
      "warning": null,
      "error": null
    },
    {
      "analysis": "sae_records",
      "group1": "record",
      "group1_level": "0001",
      "group2": null,
      "group2_level": null,
      "variable": "AENDY",
      "variable_level": null,
      "context": "listing",
      "stat_name": "value",
      "stat_label": "AENDY",
      "stat": "5",
      "warning": null,
      "error": null
    },
    {
      "analysis": "sae_records",
      "group1": "record",
      "group1_level": "0002",
      "group2": null,
      "group2_level": null,
      "variable": "AENDY",
      "variable_level": null,
      "context": "listing",
      "stat_name": "value",
      "stat_label": "AENDY",
      "stat": "28",
      "warning": null,
      "error": null
    },
    {
      "analysis": "sae_records",
      "group1": "record",
      "group1_level": "0003",
      "group2": null,
      "group2_level": null,
      "variable": "AENDY",
      "variable_level": null,
      "context": "listing",
      "stat_name": "value",
      "stat_label": "AENDY",
      "stat": "41",
      "warning": null,
      "error": null
    },
    {
      "analysis": "sae_records",
      "group1": "record",
      "group1_level": "0001",
      "group2": null,
      "group2_level": null,
      "variable": "AEOUT",
      "variable_level": null,
      "context": "listing",
      "stat_name": "value",
      "stat_label": "AEOUT",
      "stat": "RECOVERED/RESOLVED",
      "warning": null,
      "error": null
    },
    {
      "analysis": "sae_records",
      "group1": "record",
      "group1_level": "0002",
      "group2": null,
      "group2_level": null,
      "variable": "AEOUT",
      "variable_level": null,
      "context": "listing",
      "stat_name": "value",
      "stat_label": "AEOUT",
      "stat": "RECOVERED/RESOLVED",
      "warning": null,
      "error": null
    },
    {
      "analysis": "sae_records",
      "group1": "record",
      "group1_level": "0003",
      "group2": null,
      "group2_level": null,
      "variable": "AEOUT",
      "variable_level": null,
      "context": "listing",
      "stat_name": "value",
      "stat_label": "AEOUT",
      "stat": "RECOVERED/RESOLVED",
      "warning": null,
      "error": null
    }
  ]
}
