{"display":"l-ae-serious","created":"2026-07-25T06:39:08Z","rows":[{"analysis":"sae_records","group1":"record","group1_level":"0001","group2":null,"group2_level":null,"variable":"USUBJID","variable_level":null,"stat_name":"value","stat_label":"USUBJID","stat":"01-709-1424","warning":null,"error":null},{"analysis":"sae_records","group1":"record","group1_level":"0002","group2":null,"group2_level":null,"variable":"USUBJID","variable_level":null,"stat_name":"value","stat_label":"USUBJID","stat":"01-718-1170","warning":null,"error":null},{"analysis":"sae_records","group1":"record","group1_level":"0003","group2":null,"group2_level":null,"variable":"USUBJID","variable_level":null,"stat_name":"value","stat_label":"USUBJID","stat":"01-718-1371","warning":null,"error":null},{"analysis":"sae_records","group1":"record","group1_level":"0001","group2":null,"group2_level":null,"variable":"TRT01A","variable_level":null,"stat_name":"value","stat_label":"TRT01A","stat":"Xanomeline Low Dose","warning":null,"error":null},{"analysis":"sae_records","group1":"record","group1_level":"0002","group2":null,"group2_level":null,"variable":"TRT01A","variable_level":null,"stat_name":"value","stat_label":"TRT01A","stat":"Xanomeline Low Dose","warning":null,"error":null},{"analysis":"sae_records","group1":"record","group1_level":"0003","group2":null,"group2_level":null,"variable":"TRT01A","variable_level":null,"stat_name":"value","stat_label":"TRT01A","stat":"Xanomeline High Dose","warning":null,"error":null},{"analysis":"sae_records","group1":"record","group1_level":"0001","group2":null,"group2_level":null,"variable":"AGE","variable_level":null,"stat_name":"value","stat_label":"AGE","stat":"77","warning":null,"error":null},{"analysis":"sae_records","group1":"record","group1_level":"0002","group2":null,"group2_level":null,"variable":"AGE","variable_level":null,"stat_name":"value","stat_label":"AGE","stat":"80","warning":null,"error":null},{"analysis":"sae_records","group1":"record","group1_level":"0003","group2":null,"group2_level":null,"variable":"AGE","variable_level":null,"stat_name":"value","stat_label":"AGE","stat":"69","warning":null,"error":null},{"analysis":"sae_records","group1":"record","group1_level":"0001","group2":null,"group2_level":null,"variable":"SEX","variable_level":null,"stat_name":"value","stat_label":"SEX","stat":"M","warning":null,"error":null},{"analysis":"sae_records","group1":"record","group1_level":"0002","group2":null,"group2_level":null,"variable":"SEX","variable_level":null,"stat_name":"value","stat_label":"SEX","stat":"F","warning":null,"error":null},{"analysis":"sae_records","group1":"record","group1_level":"0003","group2":null,"group2_level":null,"variable":"SEX","variable_level":null,"stat_name":"value","stat_label":"SEX","stat":"F","warning":null,"error":null},{"analysis":"sae_records","group1":"record","group1_level":"0001","group2":null,"group2_level":null,"variable":"AEBODSYS","variable_level":null,"stat_name":"value","stat_label":"AEBODSYS","stat":"NERVOUS SYSTEM DISORDERS","warning":null,"error":null},{"analysis":"sae_records","group1":"record","group1_level":"0002","group2":null,"group2_level":null,"variable":"AEBODSYS","variable_level":null,"stat_name":"value","stat_label":"AEBODSYS","stat":"NERVOUS SYSTEM DISORDERS","warning":null,"error":null},{"analysis":"sae_records","group1":"record","group1_level":"0003","group2":null,"group2_level":null,"variable":"AEBODSYS","variable_level":null,"stat_name":"value","stat_label":"AEBODSYS","stat":"NERVOUS SYSTEM DISORDERS","warning":null,"error":null},{"analysis":"sae_records","group1":"record","group1_level":"0001","group2":null,"group2_level":null,"variable":"AEDECOD","variable_level":null,"stat_name":"value","stat_label":"AEDECOD","stat":"SYNCOPE","warning":null,"error":null},{"analysis":"sae_records","group1":"record","group1_level":"0002","group2":null,"group2_level":null,"variable":"AEDECOD","variable_level":null,"stat_name":"value","stat_label":"AEDECOD","stat":"SYNCOPE","warning":null,"error":null},{"analysis":"sae_records","group1":"record","group1_level":"0003","group2":null,"group2_level":null,"variable":"AEDECOD","variable_level":null,"stat_name":"value","stat_label":"AEDECOD","stat":"PARTIAL SEIZURES WITH SECONDARY GENERALISATION","warning":null,"error":null},{"analysis":"sae_records","group1":"record","group1_level":"0001","group2":null,"group2_level":null,"variable":"AESEV","variable_level":null,"stat_name":"value","stat_label":"AESEV","stat":"MODERATE","warning":null,"error":null},{"analysis":"sae_records","group1":"record","group1_level":"0002","group2":null,"group2_level":null,"variable":"AESEV","variable_level":null,"stat_name":"value","stat_label":"AESEV","stat":"SEVERE","warning":null,"error":null},{"analysis":"sae_records","group1":"record","group1_level":"0003","group2":null,"group2_level":null,"variable":"AESEV","variable_level":null,"stat_name":"value","stat_label":"AESEV","stat":"SEVERE","warning":null,"error":null},{"analysis":"sae_records","group1":"record","group1_level":"0001","group2":null,"group2_level":null,"variable":"AEREL","variable_level":null,"stat_name":"value","stat_label":"AEREL","stat":"POSSIBLE","warning":null,"error":null},{"analysis":"sae_records","group1":"record","group1_level":"0002","group2":null,"group2_level":null,"variable":"AEREL","variable_level":null,"stat_name":"value","stat_label":"AEREL","stat":"PROBABLE","warning":null,"error":null},{"analysis":"sae_records","group1":"record","group1_level":"0003","group2":null,"group2_level":null,"variable":"AEREL","variable_level":null,"stat_name":"value","stat_label":"AEREL","stat":"NONE","warning":null,"error":null},{"analysis":"sae_records","group1":"record","group1_level":"0001","group2":null,"group2_level":null,"variable":"ASTDY","variable_level":null,"stat_name":"value","stat_label":"ASTDY","stat":"5","warning":null,"error":null},{"analysis":"sae_records","group1":"record","group1_level":"0002","group2":null,"group2_level":null,"variable":"ASTDY","variable_level":null,"stat_name":"value","stat_label":"ASTDY","stat":"27","warning":null,"error":null},{"analysis":"sae_records","group1":"record","group1_level":"0003","group2":null,"group2_level":null,"variable":"ASTDY","variable_level":null,"stat_name":"value","stat_label":"ASTDY","stat":"38","warning":null,"error":null},{"analysis":"sae_records","group1":"record","group1_level":"0001","group2":null,"group2_level":null,"variable":"AENDY","variable_level":null,"stat_name":"value","stat_label":"AENDY","stat":"5","warning":null,"error":null},{"analysis":"sae_records","group1":"record","group1_level":"0002","group2":null,"group2_level":null,"variable":"AENDY","variable_level":null,"stat_name":"value","stat_label":"AENDY","stat":"28","warning":null,"error":null},{"analysis":"sae_records","group1":"record","group1_level":"0003","group2":null,"group2_level":null,"variable":"AENDY","variable_level":null,"stat_name":"value","stat_label":"AENDY","stat":"41","warning":null,"error":null},{"analysis":"sae_records","group1":"record","group1_level":"0001","group2":null,"group2_level":null,"variable":"AEOUT","variable_level":null,"stat_name":"value","stat_label":"AEOUT","stat":"RECOVERED/RESOLVED","warning":null,"error":null},{"analysis":"sae_records","group1":"record","group1_level":"0002","group2":null,"group2_level":null,"variable":"AEOUT","variable_level":null,"stat_name":"value","stat_label":"AEOUT","stat":"RECOVERED/RESOLVED","warning":null,"error":null},{"analysis":"sae_records","group1":"record","group1_level":"0003","group2":null,"group2_level":null,"variable":"AEOUT","variable_level":null,"stat_name":"value","stat_label":"AEOUT","stat":"RECOVERED/RESOLVED","warning":null,"error":null}]}