{
  "schema": "opencsr/ard/v1",
  "display": "l-ae-serious",
  "created": "2026-07-25T00:00:00Z",
  "provenance": {
    "fixture": true,
    "note": "Synthetic fixture ARD — pipeline vocabulary, synthetic values. Not a pipeline run.",
    "spec_hash": "sha256:fixture-l-ae-serious-analysis",
    "display_hash": "sha256:fixture-l-ae-serious-display",
    "data": [
      {
        "dataset": "adsl",
        "hash": "sha256:fixture-adsl",
        "n_row": 254,
        "source_pkg": "pharmaverseadam",
        "source_version": "1.1.0"
      },
      {
        "dataset": "adae",
        "hash": "sha256:fixture-adae",
        "n_row": 1191,
        "source_pkg": "pharmaverseadam",
        "source_version": "1.1.0"
      }
    ],
    "environment": {
      "r": "4.3.3",
      "os": "fixture",
      "packages": {
        "cards": "0.6.1",
        "cardx": "0.2.5",
        "gtsummary": "2.3.0"
      }
    },
    "git_commit": null
  },
  "rows": [
    {
      "analysis": "sae_records",
      "group1": "record",
      "group1_level": "0001",
      "group2": null,
      "group2_level": null,
      "variable": "USUBJID",
      "variable_level": null,
      "context": "listing",
      "stat_name": "value",
      "stat_label": "USUBJID",
      "stat": "01-701-1015",
      "warning": null,
      "error": null
    },
    {
      "analysis": "sae_records",
      "group1": "record",
      "group1_level": "0001",
      "group2": null,
      "group2_level": null,
      "variable": "TRT01A",
      "variable_level": null,
      "context": "listing",
      "stat_name": "value",
      "stat_label": "TRT01A",
      "stat": "Placebo",
      "warning": null,
      "error": null
    },
    {
      "analysis": "sae_records",
      "group1": "record",
      "group1_level": "0001",
      "group2": null,
      "group2_level": null,
      "variable": "AGE",
      "variable_level": null,
      "context": "listing",
      "stat_name": "value",
      "stat_label": "AGE",
      "stat": "63",
      "warning": null,
      "error": null
    },
    {
      "analysis": "sae_records",
      "group1": "record",
      "group1_level": "0001",
      "group2": null,
      "group2_level": null,
      "variable": "SEX",
      "variable_level": null,
      "context": "listing",
      "stat_name": "value",
      "stat_label": "SEX",
      "stat": "F",
      "warning": null,
      "error": null
    },
    {
      "analysis": "sae_records",
      "group1": "record",
      "group1_level": "0001",
      "group2": null,
      "group2_level": null,
      "variable": "AEBODSYS",
      "variable_level": null,
      "context": "listing",
      "stat_name": "value",
      "stat_label": "AEBODSYS",
      "stat": "CARDIAC DISORDERS",
      "warning": null,
      "error": null
    },
    {
      "analysis": "sae_records",
      "group1": "record",
      "group1_level": "0001",
      "group2": null,
      "group2_level": null,
      "variable": "AEDECOD",
      "variable_level": null,
      "context": "listing",
      "stat_name": "value",
      "stat_label": "AEDECOD",
      "stat": "MYOCARDIAL INFARCTION",
      "warning": null,
      "error": null
    },
    {
      "analysis": "sae_records",
      "group1": "record",
      "group1_level": "0001",
      "group2": null,
      "group2_level": null,
      "variable": "AESEV",
      "variable_level": null,
      "context": "listing",
      "stat_name": "value",
      "stat_label": "AESEV",
      "stat": "SEVERE",
      "warning": null,
      "error": null
    },
    {
      "analysis": "sae_records",
      "group1": "record",
      "group1_level": "0001",
      "group2": null,
      "group2_level": null,
      "variable": "AEREL",
      "variable_level": null,
      "context": "listing",
      "stat_name": "value",
      "stat_label": "AEREL",
      "stat": "N",
      "warning": null,
      "error": null
    },
    {
      "analysis": "sae_records",
      "group1": "record",
      "group1_level": "0001",
      "group2": null,
      "group2_level": null,
      "variable": "ASTDY",
      "variable_level": null,
      "context": "listing",
      "stat_name": "value",
      "stat_label": "ASTDY",
      "stat": "42",
      "warning": null,
      "error": null
    },
    {
      "analysis": "sae_records",
      "group1": "record",
      "group1_level": "0001",
      "group2": null,
      "group2_level": null,
      "variable": "AENDY",
      "variable_level": null,
      "context": "listing",
      "stat_name": "value",
      "stat_label": "AENDY",
      "stat": "46",
      "warning": null,
      "error": null
    },
    {
      "analysis": "sae_records",
      "group1": "record",
      "group1_level": "0001",
      "group2": null,
      "group2_level": null,
      "variable": "AEOUT",
      "variable_level": null,
      "context": "listing",
      "stat_name": "value",
      "stat_label": "AEOUT",
      "stat": "RECOVERED",
      "warning": null,
      "error": null
    },
    {
      "analysis": "sae_records",
      "group1": "record",
      "group1_level": "0002",
      "group2": null,
      "group2_level": null,
      "variable": "USUBJID",
      "variable_level": null,
      "context": "listing",
      "stat_name": "value",
      "stat_label": "USUBJID",
      "stat": "01-703-1119",
      "warning": null,
      "error": null
    },
    {
      "analysis": "sae_records",
      "group1": "record",
      "group1_level": "0002",
      "group2": null,
      "group2_level": null,
      "variable": "TRT01A",
      "variable_level": null,
      "context": "listing",
      "stat_name": "value",
      "stat_label": "TRT01A",
      "stat": "Xanomeline Low Dose",
      "warning": null,
      "error": null
    },
    {
      "analysis": "sae_records",
      "group1": "record",
      "group1_level": "0002",
      "group2": null,
      "group2_level": null,
      "variable": "AGE",
      "variable_level": null,
      "context": "listing",
      "stat_name": "value",
      "stat_label": "AGE",
      "stat": "79",
      "warning": null,
      "error": null
    },
    {
      "analysis": "sae_records",
      "group1": "record",
      "group1_level": "0002",
      "group2": null,
      "group2_level": null,
      "variable": "SEX",
      "variable_level": null,
      "context": "listing",
      "stat_name": "value",
      "stat_label": "SEX",
      "stat": "M",
      "warning": null,
      "error": null
    },
    {
      "analysis": "sae_records",
      "group1": "record",
      "group1_level": "0002",
      "group2": null,
      "group2_level": null,
      "variable": "AEBODSYS",
      "variable_level": null,
      "context": "listing",
      "stat_name": "value",
      "stat_label": "AEBODSYS",
      "stat": "NERVOUS SYSTEM DISORDERS",
      "warning": null,
      "error": null
    },
    {
      "analysis": "sae_records",
      "group1": "record",
      "group1_level": "0002",
      "group2": null,
      "group2_level": null,
      "variable": "AEDECOD",
      "variable_level": null,
      "context": "listing",
      "stat_name": "value",
      "stat_label": "AEDECOD",
      "stat": "SYNCOPE",
      "warning": null,
      "error": null
    },
    {
      "analysis": "sae_records",
      "group1": "record",
      "group1_level": "0002",
      "group2": null,
      "group2_level": null,
      "variable": "AESEV",
      "variable_level": null,
      "context": "listing",
      "stat_name": "value",
      "stat_label": "AESEV",
      "stat": "SEVERE",
      "warning": null,
      "error": null
    },
    {
      "analysis": "sae_records",
      "group1": "record",
      "group1_level": "0002",
      "group2": null,
      "group2_level": null,
      "variable": "AEREL",
      "variable_level": null,
      "context": "listing",
      "stat_name": "value",
      "stat_label": "AEREL",
      "stat": "Y",
      "warning": null,
      "error": null
    },
    {
      "analysis": "sae_records",
      "group1": "record",
      "group1_level": "0002",
      "group2": null,
      "group2_level": null,
      "variable": "ASTDY",
      "variable_level": null,
      "context": "listing",
      "stat_name": "value",
      "stat_label": "ASTDY",
      "stat": "17",
      "warning": null,
      "error": null
    },
    {
      "analysis": "sae_records",
      "group1": "record",
      "group1_level": "0002",
      "group2": null,
      "group2_level": null,
      "variable": "AENDY",
      "variable_level": null,
      "context": "listing",
      "stat_name": "value",
      "stat_label": "AENDY",
      "stat": "18",
      "warning": null,
      "error": null
    },
    {
      "analysis": "sae_records",
      "group1": "record",
      "group1_level": "0002",
      "group2": null,
      "group2_level": null,
      "variable": "AEOUT",
      "variable_level": null,
      "context": "listing",
      "stat_name": "value",
      "stat_label": "AEOUT",
      "stat": "RECOVERED",
      "warning": null,
      "error": null
    },
    {
      "analysis": "sae_records",
      "group1": "record",
      "group1_level": "0003",
      "group2": null,
      "group2_level": null,
      "variable": "USUBJID",
      "variable_level": null,
      "context": "listing",
      "stat_name": "value",
      "stat_label": "USUBJID",
      "stat": "01-704-1164",
      "warning": null,
      "error": null
    },
    {
      "analysis": "sae_records",
      "group1": "record",
      "group1_level": "0003",
      "group2": null,
      "group2_level": null,
      "variable": "TRT01A",
      "variable_level": null,
      "context": "listing",
      "stat_name": "value",
      "stat_label": "TRT01A",
      "stat": "Xanomeline High Dose",
      "warning": null,
      "error": null
    },
    {
      "analysis": "sae_records",
      "group1": "record",
      "group1_level": "0003",
      "group2": null,
      "group2_level": null,
      "variable": "AGE",
      "variable_level": null,
      "context": "listing",
      "stat_name": "value",
      "stat_label": "AGE",
      "stat": "81",
      "warning": null,
      "error": null
    },
    {
      "analysis": "sae_records",
      "group1": "record",
      "group1_level": "0003",
      "group2": null,
      "group2_level": null,
      "variable": "SEX",
      "variable_level": null,
      "context": "listing",
      "stat_name": "value",
      "stat_label": "SEX",
      "stat": "F",
      "warning": null,
      "error": null
    },
    {
      "analysis": "sae_records",
      "group1": "record",
      "group1_level": "0003",
      "group2": null,
      "group2_level": null,
      "variable": "AEBODSYS",
      "variable_level": null,
      "context": "listing",
      "stat_name": "value",
      "stat_label": "AEBODSYS",
      "stat": "INFECTIONS AND INFESTATIONS",
      "warning": null,
      "error": null
    },
    {
      "analysis": "sae_records",
      "group1": "record",
      "group1_level": "0003",
      "group2": null,
      "group2_level": null,
      "variable": "AEDECOD",
      "variable_level": null,
      "context": "listing",
      "stat_name": "value",
      "stat_label": "AEDECOD",
      "stat": "PNEUMONIA",
      "warning": null,
      "error": null
    },
    {
      "analysis": "sae_records",
      "group1": "record",
      "group1_level": "0003",
      "group2": null,
      "group2_level": null,
      "variable": "AESEV",
      "variable_level": null,
      "context": "listing",
      "stat_name": "value",
      "stat_label": "AESEV",
      "stat": "SEVERE",
      "warning": null,
      "error": null
    },
    {
      "analysis": "sae_records",
      "group1": "record",
      "group1_level": "0003",
      "group2": null,
      "group2_level": null,
      "variable": "AEREL",
      "variable_level": null,
      "context": "listing",
      "stat_name": "value",
      "stat_label": "AEREL",
      "stat": "N",
      "warning": null,
      "error": null
    },
    {
      "analysis": "sae_records",
      "group1": "record",
      "group1_level": "0003",
      "group2": null,
      "group2_level": null,
      "variable": "ASTDY",
      "variable_level": null,
      "context": "listing",
      "stat_name": "value",
      "stat_label": "ASTDY",
      "stat": "96",
      "warning": null,
      "error": null
    },
    {
      "analysis": "sae_records",
      "group1": "record",
      "group1_level": "0003",
      "group2": null,
      "group2_level": null,
      "variable": "AENDY",
      "variable_level": null,
      "context": "listing",
      "stat_name": "value",
      "stat_label": "AENDY",
      "stat": "104",
      "warning": null,
      "error": null
    },
    {
      "analysis": "sae_records",
      "group1": "record",
      "group1_level": "0003",
      "group2": null,
      "group2_level": null,
      "variable": "AEOUT",
      "variable_level": null,
      "context": "listing",
      "stat_name": "value",
      "stat_label": "AEOUT",
      "stat": "RECOVERED",
      "warning": null,
      "error": null
    }
  ]
}
